File: smoothing_ref/dvdqraw/S25_291_cathode_dchg_02C - 복사본.txt
Capacity (mAh), Voltage (V)
0, 4.51557
0.001322222, 4.50075
0.002710556, 4.49811
0.004429444, 4.49657
0.006214139, 4.49535
0.007932889, 4.49422
0.009717889, 4.49371
0.0115689, 4.49258
0.0133538, 4.49186
0.0151388, 4.49087
0.0169238, 4.49057
0.0188411, 4.48943
0.0206922, 4.48911
0.0226094, 4.48832
0.0243944, 4.488
0.0261794, 4.487
0.0279644, 4.48617
0.0298816, 4.48594
0.0317988, 4.485
0.0335838, 4.48457
0.0353688, 4.484
0.0371538, 4.483
0.0389388, 4.48283
0.0408561, 4.48199
0.0427072, 4.48157
0.0444922, 4.48066
0.0464094, 4.47957
0.0481944, 4.47957
0.0500455, 4.47857
0.0518305, 4.47783
0.0536816, 4.47757
0.0554665, 4.47657
0.0574498, 4.47634
0.0593009, 4.47553
0.061152, 4.47457
0.062937, 4.47413
0.064788, 4.47357
0.0667052, 4.47257
0.0686886, 4.47231
0.0704736, 4.47151
0.0722586, 4.47057
0.0741758, 4.46957
0.076093, 4.46957
0.077944, 4.46857
0.0797951, 4.46827
0.0816462, 4.46743
0.0834973, 4.46657
0.0854806, 4.46557
0.0872656, 4.46523
0.0890506, 4.46451
0.0909016, 4.46413
0.0927527, 4.46357
0.0946699, 4.46257
0.0963888, 4.46218
0.0981737, 4.46145
0.0999587, 4.46057
0.10181, 4.45957
0.103595, 4.45939
0.10538, 4.45857
0.107231, 4.45757
0.109016, 4.45713
0.110735, 4.45642
0.112519, 4.45557
0.11404, 4.45519
0.115891, 4.45444
0.11761, 4.45357
0.119395, 4.45313
0.12118, 4.45236
0.122965, 4.45157
0.12475, 4.45113
0.126469, 4.45013
0.128122, 4.44957
0.129973, 4.44857
0.131758, 4.4483
0.133609, 4.44714
0.13546, 4.4464
0.137245, 4.44613
0.138699, 4.44519
0.140484, 4.44447
0.142269, 4.44413
0.14412, 4.44313
0.145972, 4.44227
0.14769, 4.44154
0.149475, 4.44113
0.15126, 4.44028
0.153045, 4.43957
0.15483, 4.43857
0.156549, 4.43829
0.158334, 4.43713
0.160119, 4.43633
0.161904, 4.43557
0.163689, 4.43513
0.165408, 4.43432
0.167193, 4.43357
0.168978, 4.43257
0.170631, 4.4324
0.172349, 4.43157
0.174068, 4.43056
0.175919, 4.42957
0.177704, 4.42922
0.179489, 4.4285
0.181407, 4.4273
0.183192, 4.42657
0.184977, 4.42557
0.186696, 4.42521
0.188481, 4.42449
0.190398, 4.42357
0.192051, 4.42261
0.193769, 4.42157
0.195488, 4.42134
0.197207, 4.42057
0.199058, 4.41957
0.200843, 4.41868
0.202628, 4.41757
0.204413, 4.41678
0.206264, 4.41617
0.207917, 4.41549
0.209504, 4.41457
0.211289, 4.41367
0.213008, 4.41354
0.214793, 4.41241
0.216578, 4.41157
0.218363, 4.41057
0.220148, 4.40957
0.221933, 4.40869
0.223718, 4.40853
0.225569, 4.40757
0.227354, 4.40663
0.229205, 4.40557
0.231056, 4.40471
0.232973, 4.40357
0.234824, 4.40276
0.236675, 4.40257
0.238526, 4.40133
0.240377, 4.40057
0.242229, 4.39957
0.24408, 4.39866
0.245931, 4.39757
0.247782, 4.39674
0.249699, 4.39557
0.251154, 4.39492
0.253005, 4.39431
0.254922, 4.39298
0.256707, 4.39228
0.258624, 4.39126
0.260475, 4.39028
0.26226, 4.38929
0.264045, 4.38849
0.266029, 4.38728
0.26788, 4.38681
0.269731, 4.38572
0.271516, 4.38491
0.273367, 4.384
0.275152, 4.383
0.277069, 4.382
0.27892, 4.38099
0.280771, 4.38028
0.282556, 4.37928
0.284341, 4.37828
0.286192, 4.37718
0.287977, 4.37631
0.289828, 4.37556
0.291613, 4.3744
0.293531, 4.37353
0.29525, 4.37272
0.297035, 4.37157
0.29882, 4.37083
0.300671, 4.36958
0.302455, 4.36886
0.30424, 4.3677
0.306025, 4.36698
0.30781, 4.36582
0.309265, 4.36528
0.311248, 4.36427
0.313033, 4.36328
0.31495, 4.36227
0.316735, 4.36111
0.318653, 4.36028
0.320504, 4.35928
0.322289, 4.35837
0.324074, 4.35728
0.325925, 4.35647
0.327776, 4.35557
0.329627, 4.35447
0.331478, 4.35329
0.333263, 4.35254
0.335114, 4.35172
0.336965, 4.35086
0.338816, 4.34933
0.340601, 4.34857
0.342452, 4.34772
0.344303, 4.3466
0.345758, 4.34584
0.347609, 4.34472
0.349394, 4.344
0.351245, 4.34283
0.353096, 4.34173
0.354947, 4.341
0.356798, 4.33994
0.358716, 4.33872
0.360567, 4.33764
0.362352, 4.33677
0.364269, 4.336
0.36579, 4.33529
0.36764, 4.33416
0.369558, 4.33272
0.371409, 4.33188
0.373326, 4.331
0.375243, 4.32978
0.37716, 4.32872
0.379144, 4.32772
0.381061, 4.32687
0.38278, 4.32573
0.384366, 4.32529
0.386283, 4.32402
0.388135, 4.323
0.390052, 4.32214
0.391903, 4.321
0.393754, 4.32008
0.395671, 4.31904
0.397522, 4.31777
0.399373, 4.317
0.401357, 4.31573
0.403208, 4.315
0.405125, 4.31372
0.406976, 4.31297
0.408827, 4.31172
0.410678, 4.31097
0.412596, 4.30972
0.414579, 4.30872
0.416496, 4.3077
0.418347, 4.30672
0.420265, 4.30568
0.422182, 4.30472
0.424099, 4.30372
0.42595, 4.30272
0.427801, 4.30178
0.429652, 4.30059
0.431503, 4.29972
0.433355, 4.29872
0.435206, 4.29772
0.437057, 4.29678
0.438643, 4.29572
0.440428, 4.29488
0.44228, 4.29372
0.444131, 4.29288
0.445982, 4.29163
0.447833, 4.29072
0.449618, 4.28966
0.451535, 4.28872
0.453452, 4.2876
0.455303, 4.28672
0.457022, 4.28565
0.458741, 4.285
0.460592, 4.284
0.462377, 4.28315
0.464228, 4.28194
0.466013, 4.281
0.467732, 4.28
0.469517, 4.279
0.471302, 4.278
0.473087, 4.27715
0.474872, 4.276
0.476657, 4.27504
0.478508, 4.27395
0.480293, 4.27291
0.482078, 4.27211
0.483797, 4.27122
0.485582, 4.27044
0.487367, 4.2694
0.489152, 4.26818
0.490937, 4.26754
0.492722, 4.26656
0.494044, 4.26562
0.495829, 4.2647
0.497614, 4.26375
0.499399, 4.26273
0.501118, 4.26187
0.502903, 4.2611
0.504754, 4.25991
0.506605, 4.25901
0.50839, 4.25822
0.510175, 4.25697
0.51196, 4.25624
0.513811, 4.25512
0.515596, 4.25422
0.517315, 4.25328
0.519166, 4.25224
0.520819, 4.25132
0.522736, 4.25056
0.524587, 4.24939
0.526372, 4.24859
0.528157, 4.24765
0.530009, 4.24658
0.531397, 4.24599
0.533248, 4.2451
0.535033, 4.24397
0.536752, 4.24309
0.538537, 4.24222
0.540388, 4.24113
0.542107, 4.2402
0.543958, 4.2393
0.545743, 4.23817
0.547462, 4.23755
0.549181, 4.23631
0.550966, 4.23538
0.552685, 4.23468
0.554602, 4.23365
0.556321, 4.23242
0.558106, 4.23171
0.559825, 4.23077
0.561543, 4.23016
0.563461, 4.2292
0.565378, 4.22793
0.567163, 4.22714
0.569014, 4.22604
0.570865, 4.22513
0.572782, 4.22419
0.574633, 4.22329
0.576418, 4.2222
0.57827, 4.22129
0.580121, 4.22038
0.581972, 4.21931
0.583757, 4.21867
0.585608, 4.21761
0.587591, 4.2166
0.589376, 4.21551
0.591161, 4.21463
0.592946, 4.21347
0.594731, 4.21266
0.59645, 4.21175
0.598301, 4.21064
0.600086, 4.21001
0.601805, 4.20897
0.60359, 4.20805
0.605375, 4.20714
0.60716, 4.20625
0.608548, 4.20568
0.610399, 4.20463
0.612184, 4.20355
0.614035, 4.2026
0.61582, 4.20175
0.617539, 4.20065
0.619324, 4.20005
0.621241, 4.19897
0.623092, 4.19807
0.624943, 4.1974
0.62686, 4.19607
0.628712, 4.195
0.630497, 4.19454
0.632348, 4.19343
0.634067, 4.19256
0.635719, 4.19165
0.637504, 4.19064
0.639355, 4.19005
0.641206, 4.18868
0.642991, 4.18779
0.644843, 4.18687
0.646694, 4.18597
0.648479, 4.1852
0.65033, 4.18431
0.652115, 4.18321
0.653966, 4.18243
0.655817, 4.18167
0.657668, 4.18077
0.659453, 4.17987
0.661304, 4.17872
0.663221, 4.17768
0.665072, 4.17679
0.666791, 4.17591
0.668311, 4.17514
0.670162, 4.17423
0.672013, 4.17334
0.673931, 4.17222
0.675782, 4.17131
0.677633, 4.17068
0.679484, 4.16983
0.681335, 4.16894
0.683186, 4.16783
0.685103, 4.16693
0.686888, 4.16619
0.688739, 4.16519
0.69059, 4.16435
0.692441, 4.16345
0.694292, 4.16234
0.696143, 4.16173
0.697928, 4.16077
0.69978, 4.15974
0.701763, 4.15909
0.703614, 4.1579
0.705531, 4.15726
0.707514, 4.15628
0.708969, 4.15531
0.710886, 4.15467
0.71267, 4.15341
0.714455, 4.15289
0.71624, 4.15184
0.718092, 4.15121
0.719943, 4.15032
0.721794, 4.14942
0.723711, 4.14843
0.725496, 4.14771
0.727347, 4.1468
0.729066, 4.14595
0.730652, 4.14531
0.732503, 4.14453
0.734354, 4.14386
0.736139, 4.1428
0.737924, 4.14189
0.739775, 4.14083
0.74156, 4.14019
0.743411, 4.13921
0.74513, 4.13843
0.746981, 4.13763
0.748766, 4.13673
0.750419, 4.13589
0.751873, 4.13537
0.753724, 4.13462
0.755443, 4.13367
0.757294, 4.1328
0.759079, 4.1319
0.76093, 4.13106
0.762847, 4.1301
0.764632, 4.12952
0.766483, 4.12843
0.768334, 4.12756
0.770252, 4.12696
0.772103, 4.12609
0.773557, 4.12528
0.775408, 4.12452
0.777325, 4.12363
0.779309, 4.12259
0.781094, 4.12197
0.783077, 4.12108
0.78506, 4.11997
0.786911, 4.11938
0.788762, 4.11822
0.790613, 4.11763
0.792464, 4.11652
0.794316, 4.11592
0.79577, 4.11511
0.797621, 4.11452
0.799604, 4.11354
0.801323, 4.11256
0.803174, 4.11197
0.804959, 4.11111
0.80681, 4.11024
0.8086615, 4.10958
0.8104465, 4.10861
0.812231, 4.10778
0.814082, 4.10719
0.815867, 4.10622
0.817322, 4.10559
0.819107, 4.10473
0.821024, 4.10384
0.822875, 4.10307
0.824726, 4.10216
0.826511, 4.1013
0.828296, 4.10072
0.830147, 4.09972
0.831932, 4.09911
0.833717, 4.09819
0.835502, 4.09755
0.837353, 4.09667
0.83927, 4.09607
0.840659, 4.09527
0.842642, 4.09466
0.844493, 4.09364
0.84641, 4.09269
0.848261, 4.0921
0.850178, 4.09122
0.852029, 4.09066
0.85388, 4.08979
0.855797, 4.08913
0.857649, 4.08812
0.859566, 4.08758
0.861483, 4.08672
0.863268, 4.08565
0.864987, 4.08508
0.866838, 4.08449
0.868755, 4.0836
0.870606, 4.0827
0.872523, 4.0821
0.874507, 4.0812
0.876292, 4.08053
0.878077, 4.07954
0.879796, 4.07901
0.881581, 4.0783
0.883366, 4.07757
0.885217, 4.0767
0.887068, 4.07607
0.888919, 4.07548
0.89077, 4.07463
0.892621, 4.07374
0.894406, 4.073
0.896257, 4.07257
0.898108, 4.0717
0.900091, 4.07112
0.901942, 4.07007
0.903727, 4.06945
0.905512, 4.06872
0.907363, 4.068
0.909214, 4.06728
0.911131, 4.06663
0.913048, 4.06572
0.914966, 4.06516
0.916817, 4.06457
0.918734, 4.06365
0.920453, 4.0628
0.922304, 4.0622
0.924221, 4.06157
0.926072, 4.06098
0.927923, 4.06011
0.929775, 4.05952
0.931626, 4.05865
0.933477, 4.05802
0.935394, 4.05714
0.937245, 4.05655
0.93903, 4.05568
0.940947, 4.05508
0.942798, 4.05449
0.944781, 4.05388
0.946566, 4.05302
0.948417, 4.05215
0.950269, 4.05156
0.95212, 4.05078
0.953971, 4.05038
0.955822, 4.04954
0.957673, 4.04892
0.95959, 4.04832
0.961507, 4.0475
0.963424, 4.04688
0.965342, 4.04627
0.966862, 4.04573
0.968779, 4.04485
0.97063, 4.04426
0.972548, 4.0435
0.974465, 4.04299
0.976316, 4.04222
0.978233, 4.04162
0.980084, 4.04075
0.982001, 4.04028
0.983852, 4.03966
0.985769, 4.03886
0.987686, 4.03826
0.989537, 4.03739
0.991388, 4.03695
0.993305, 4.03616
0.995157, 4.03557
0.996677, 4.03494
0.998594, 4.03428
1.00058, 4.03372
1.00249, 4.03284
1.00448, 4.03244
1.0064, 4.03184
1.00825, 4.03125
1.01016, 4.03033
1.01201, 4.02972
1.01393, 4.02914
1.01585, 4.02848
1.01777, 4.02757
1.01968, 4.02696
1.0216, 4.02636
1.02339, 4.0255
1.0251, 4.02511
1.02696, 4.0248
1.02887, 4.02392
1.03079, 4.02332
1.03277, 4.02256
1.03476, 4.022
1.03667, 4.02121
1.03859, 4.02078
1.04051, 4.01994
1.04243, 4.01934
1.04441, 4.01878
1.04633, 4.01803
1.04824, 4.01741
1.05009, 4.0168
1.05195, 4.01623
1.05386, 4.01566
1.05532, 4.015
1.05723, 4.01474
1.05909, 4.01415
1.061, 4.01348
1.06285, 4.0129
1.0647, 4.01228
1.06649, 4.01191
1.06834, 4.01132
1.07006, 4.0105
1.07198, 4.0099
1.07383, 4.00944
1.07574, 4.00886
1.07773, 4.00828
1.07958, 4.00785
1.08169, 4.00692
1.08368, 4.00631
1.08546, 4.00578
1.08738, 4.00532
1.08936, 4.00476
1.09121, 4.00425
1.09306, 4.00363
1.09498, 4.00296
1.0969, 4.00236
1.09875, 4.00177
1.10067, 4.00128
1.10258, 4.00075
1.1045, 4.00015
1.10629, 3.99978
1.1082, 3.99915
1.11006, 3.99857
1.11197, 3.99788
1.11389, 3.99728
1.11574, 3.99678
1.11766, 3.99628
1.11951, 3.99568
1.12103, 3.99513
1.12295, 3.99474
1.1248, 3.99415
1.12672, 3.99355
1.12857, 3.99278
1.13055, 3.99228
1.13247, 3.99187
1.13438, 3.99127
1.13623, 3.99078
1.13809, 3.9903
1.13994, 3.98972
1.14179, 3.98913
1.14371, 3.98878
1.14556, 3.98833
1.14741, 3.98774
1.14926, 3.98715
1.15118, 3.98657
1.15303, 3.9862
1.15494, 3.98562
1.1568, 3.98521
1.15871, 3.98461
1.16056, 3.98407
1.16241, 3.98365
1.16433, 3.98307
1.16618, 3.98267
1.16803, 3.98208
1.16988, 3.98149
1.17167, 3.98107
1.17352, 3.98054
1.17537, 3.97998
1.17716, 3.97957
1.17901, 3.97904
1.18073, 3.97857
1.18264, 3.97809
1.18443, 3.97758
1.18628, 3.97695
1.1882, 3.97685
1.19005, 3.97635
1.19197, 3.97584
1.19355, 3.97502
1.19521, 3.97485
1.19706, 3.97437
1.19891, 3.974
1.20069, 3.97342
1.20248, 3.97285
1.20433, 3.97209
1.20618, 3.97185
1.20803, 3.97129
1.20988, 3.97085
1.21167, 3.97062
1.21352, 3.96985
1.21537, 3.96937
1.21722, 3.96926
1.21907, 3.96869
1.22092, 3.96813
1.22277, 3.96773
1.22462, 3.96714
1.22654, 3.96676
1.22833, 3.96618
1.23018, 3.96581
1.23203, 3.96522
1.23388, 3.96485
1.23573, 3.96463
1.23758, 3.9642
1.23937, 3.96363
1.24115, 3.96313
1.243, 3.96271
1.24485, 3.96212
1.24671, 3.96163
1.24862, 3.96115
1.25047, 3.96102
1.25226, 3.96044
1.25418, 3.95978
1.25603, 3.95963
1.25788, 3.9591
1.25973, 3.95863
1.26151, 3.95815
1.26337, 3.95798
1.26522, 3.95713
1.267, 3.95663
1.26885, 3.95648
1.27077, 3.9561
1.27249, 3.95563
1.27427, 3.95517
1.27606, 3.95463
1.27784, 3.95421
1.27969, 3.95413
1.28141, 3.95356
1.2832, 3.95313
1.28505, 3.95291
1.28683, 3.9525
1.28862, 3.95192
1.29047, 3.95163
1.29226, 3.95115
1.29404, 3.95063
1.29583, 3.9505
1.29761, 3.94991
1.2994, 3.94956
1.30118, 3.94913
1.30297, 3.94908
1.30475, 3.9485
1.30647, 3.94813
1.30825, 3.94754
1.31004, 3.94713
1.311758, 3.94679
1.313543, 3.94649
1.31539, 3.94612
1.31718, 3.94563
1.31903, 3.9452
1.32055, 3.94467
1.32227, 3.9446
1.32412, 3.94413
1.32597, 3.94363
1.32789, 3.9435
1.32974, 3.94313
1.33166, 3.94241
1.33351, 3.94198
1.33536, 3.94163
1.33721, 3.94113
1.33913, 3.94113
1.34091, 3.94051
1.3427, 3.94019
1.34455, 3.93991
1.3464, 3.93953
1.34838, 3.93913
1.35023, 3.93855
1.35209, 3.93841
1.35394, 3.93813
1.35579, 3.93741
1.35757, 3.93693
1.35936, 3.93673
1.36121, 3.93641
1.36306, 3.93607
1.36491, 3.93591
1.3667, 3.93541
1.36848, 3.93503
1.37033, 3.93491
1.37218, 3.93441
1.37397, 3.93402
1.37575, 3.93363
1.37767, 3.93341
1.37945, 3.933
1.38124, 3.9327
1.38302, 3.93202
1.38488, 3.93163
1.38666, 3.93141
1.38858, 3.93141
1.39043, 3.93091
1.39235, 3.93041
1.39426, 3.9304
1.39618, 3.92991
1.3981, 3.92941
1.40002, 3.92931
1.40187, 3.92891
1.40378, 3.92841
1.4057, 3.92824
1.407618, 3.9277
1.40954, 3.9274
1.41139, 3.9272
1.41324, 3.9269
1.41515, 3.92641
1.41701, 3.92621
1.41886, 3.92582
1.42077, 3.9257
1.42263, 3.9252
1.42448, 3.92474
1.42613, 3.92435
1.427848, 3.9242
1.4297, 3.92391
1.43148, 3.9237
1.4334, 3.92324
1.43519, 3.92317
1.43704, 3.9227
1.43882, 3.92225
1.44067, 3.9217
1.44252, 3.9217
1.44438, 3.92124
1.44636, 3.92098
1.44814, 3.9207
1.45, 3.92048
1.45185, 3.9202
1.4537, 3.91999
1.45555, 3.91962
1.4574, 3.9192
1.45925, 3.91916
1.46117, 3.9187
1.46302, 3.91847
1.465, 3.91798
1.46679, 3.91768
1.46857, 3.91738
1.47042, 3.91698
1.47227, 3.9167
1.47406, 3.91656
1.47591, 3.91618
1.47776, 3.91598
1.47961, 3.9157
1.48146, 3.91548
1.48325, 3.91505
1.48503, 3.91498
1.48682, 3.91461
1.48854, 3.9142
1.49032, 3.91415
1.49211, 3.91398
1.49396, 3.91348
1.49581, 3.91348
1.49779, 3.91307
1.49971, 3.91269
1.50149, 3.91248
1.50328, 3.91248
1.505, 3.912
1.50678, 3.91163
1.5087, 3.91148
1.51049, 3.91113
1.51234, 3.91098
1.51419, 3.9107
1.51604, 3.91048
1.51782, 3.9102
1.51981, 3.90998
1.52166, 3.9097
1.52351, 3.90948
1.52543, 3.9092
1.52728, 3.90898
1.52919, 3.90854
1.53105, 3.90848
1.5329, 3.90798
1.53475, 3.90784
1.5366, 3.90748
1.53858, 3.90748
1.54057, 3.907
1.54242, 3.90698
1.54433, 3.90649
1.54625, 3.90648
1.54817, 3.90601
1.55002, 3.90598
1.55187, 3.90555
1.55379, 3.90545
1.55564, 3.90498
1.55756, 3.90498
1.55947, 3.90459
1.56132, 3.90448
1.56318, 3.90414
1.56509, 3.90398
1.56694, 3.90398
1.56886, 3.90359
1.57078, 3.90329
1.57263, 3.9033
1.57461, 3.90298
1.57646, 3.90276
1.57831, 3.90248
1.58023, 3.90248
1.58215, 3.90198
1.58407, 3.9017
1.58618, 3.90148
1.5881, 3.9012
1.59002, 3.90114
1.59187, 3.90098
1.59392, 3.90048
1.5959, 3.90048
1.59788, 3.9002
1.59973, 3.89998
1.60165, 3.89998
1.60357, 3.89985
1.60542, 3.89948
1.60727, 3.8992
1.60919, 3.89898
1.61097, 3.89898
1.61282, 3.8987
1.61467, 3.89848
1.61659, 3.89848
1.61844, 3.89798
1.62029, 3.89798
1.62208, 3.89782
1.62406, 3.89753
1.62578, 3.89748
1.62757, 3.89738
1.62942, 3.89698
1.63127, 3.8967
1.63305, 3.8967
1.63484, 3.89651
1.63669, 3.89648
1.63861, 3.8962
1.64046, 3.89613
1.64224, 3.8957
1.64416, 3.8957
1.64594, 3.89552
1.64793, 3.89548
1.64971, 3.8952
1.6517, 3.8952
1.65355, 3.89502
1.6554, 3.8947
1.65725, 3.8947
1.6587, 3.89457
1.66056, 3.8942
1.66234, 3.8943
1.66426, 3.8942
1.66617, 3.89391
1.66803, 3.8937
1.66981, 3.8937
1.67166, 3.8937
1.67345, 3.8932
1.6753, 3.89311
1.67715, 3.89298
1.67907, 3.89298
1.68092, 3.89259
1.6827, 3.89269
1.68455, 3.89248
1.68627, 3.8922
1.68819, 3.89218
1.69004, 3.89198
1.69182, 3.8917
1.69368, 3.8917
1.69553, 3.8917
1.69738, 3.8912
1.69916, 3.8912
1.70101, 3.89119
1.70286, 3.89098
1.70465, 3.89098
1.7065, 3.8907
1.70835, 3.89056
1.7102, 3.89069
1.71199, 3.89048
1.71384, 3.89048
1.71569, 3.8902
1.71754, 3.8902
1.71933, 3.88998
1.72118, 3.88998
1.72296, 3.8897
1.72475, 3.8897
1.7266, 3.88958
1.72852, 3.88948
1.73037, 3.88948
1.73222, 3.8892
1.734, 3.88907
1.73579, 3.889
1.73757, 3.88898
1.73929, 3.8887
1.74114, 3.88848
1.74293, 3.88848
1.74471, 3.88847
1.746564, 3.88838
1.748349, 3.88827
1.7502, 3.88826
1.75205, 3.88798
1.75384, 3.88791
1.75562, 3.88794
1.75747, 3.88776
1.75926, 3.88764
1.76124, 3.88776
1.76309, 3.88763
1.76488, 3.88728
1.766794, 3.88726
1.76865, 3.88726
1.7705, 3.88726
1.77235, 3.88726
1.7742, 3.88715
1.77605, 3.88704
1.7779, 3.88704
1.77969, 3.88703
1.78154, 3.88664
1.783454, 3.88661
1.7853, 3.88651
1.78716, 3.88633
1.78901, 3.88633
1.79086, 3.88633
1.79278, 3.88633
1.79463, 3.88604
1.79641, 3.88604
1.7982, 3.88586
1.79998, 3.88583
1.80177, 3.88583
1.80355, 3.88583
1.80534, 3.88571
1.80712, 3.88582
1.80897, 3.88533
1.81076, 3.88533
1.81261, 3.88557
1.81446, 3.88511
1.81631, 3.88511
1.81816, 3.88511
1.82008, 3.88511
1.82193, 3.88489
1.82378, 3.88489
1.82563, 3.88487
1.82742, 3.88467
1.8292, 3.88439
1.83105, 3.88439
1.83284, 3.88467
1.83456, 3.88439
1.83634, 3.88417
1.83819, 3.88417
1.84004, 3.88414
1.84189, 3.88396
1.84375, 3.88396
1.8456, 3.88396
1.84738, 3.88396
1.84923, 3.88396
1.85108, 3.8838
1.85294, 3.88374
1.85479, 3.88346
1.8567, 3.88346
1.85862, 3.88332
1.86054, 3.88324
1.86239, 3.88324
1.86424, 3.88324
1.86602, 3.88324
1.86788, 3.88309
1.86966, 3.88274
1.87158, 3.88302
1.8735, 3.88274
1.87541, 3.88252
1.87726, 3.88252
1.87918, 3.88252
1.88103, 3.88252
1.88295, 3.88247
1.8848, 3.88247
1.88665, 3.8823
1.88817, 3.8823
1.89002, 3.8823
1.89194, 3.8818
1.89386, 3.88209
1.89564, 3.8818
1.89749, 3.8818
1.89934, 3.88159
1.90133, 3.88159
1.90318, 3.88138
1.90503, 3.88137
1.90688, 3.88137
1.90873, 3.88115
1.91058, 3.88115
1.9125, 3.88115
1.91428, 3.88115
1.9162, 3.88093
1.91805, 3.88093
1.91997, 3.88093
1.92189, 3.88065
1.92367, 3.88065
1.92546, 3.88059
1.92731, 3.88043
1.92922, 3.88043
1.93108, 3.88023
1.93293, 3.88022
1.93491, 3.88022
1.93683, 3.88013
1.93868, 3.88
1.94066, 3.88
1.94264, 3.87972
1.94456, 3.87978
1.94635, 3.8795
1.94826, 3.8795
1.95012, 3.87931
1.95197, 3.8794
1.95388, 3.87928
1.95573, 3.87928
1.95752, 3.87919
1.95937, 3.87907
1.96122, 3.87907
1.96301, 3.87889
1.96492, 3.87857
1.96678, 3.87857
1.96856, 3.87849
1.97041, 3.87835
1.97226, 3.87835
1.97411, 3.87822
1.97583, 3.87813
1.97775, 3.87813
1.97947, 3.87804
1.98119, 3.87763
1.98291, 3.87791
1.98462, 3.87763
1.98641, 3.87745
1.98819, 3.87741
1.98991, 3.87731
1.99176, 3.8772
1.99348, 3.87711
1.99527, 3.8767
1.99692, 3.8767
1.99871, 3.8767
2.00042, 3.8767
2.00221, 3.87648
2.00406, 3.87648
2.00584, 3.87626
2.00763, 3.87626
2.009282, 3.87626
2.01113, 3.87604
2.01292, 3.87604
2.01484, 3.87583
2.01669, 3.87583
2.01854, 3.87536
2.02045, 3.87533
2.02231, 3.87513
2.02422, 3.87511
2.02601, 3.87492
2.02786, 3.87505
2.02978, 3.87489
2.03169, 3.87481
2.03361, 3.87467
2.03553, 3.87446
2.03744, 3.87397
2.03943, 3.87424
2.04128, 3.87396
2.04306, 3.873872
2.04498, 3.87374
2.04683, 3.87368
2.04875, 3.87352
2.0506, 3.8733
2.05252, 3.8733
2.05437, 3.8728
2.05629, 3.87291
2.05827, 3.87248
2.06012, 3.87237
2.0619, 3.87231
2.06376, 3.87215
2.06561, 3.87195
2.06759, 3.87179
2.06951, 3.87174
2.07136, 3.87137
2.07321, 3.87122
2.07513, 3.871
2.07704, 3.87091
2.0789, 3.87078
2.08068, 3.87028
2.08253, 3.87028
2.08445, 3.87007
2.08637, 3.86985
2.08822, 3.86966
2.09013, 3.86956
2.09205, 3.86941
2.0939, 3.86915
2.09582, 3.8687
2.09787, 3.86848
2.09979, 3.86833
2.10164, 3.86826
2.10355, 3.86802
2.10541, 3.86783
2.10726, 3.86753
2.10911, 3.86711
2.11096, 3.86685
2.11281, 3.86667
2.11486, 3.86634
2.11671, 3.86624
2.11863, 3.86601
2.12041, 3.86543
2.12233, 3.86511
2.12418, 3.86487
2.12603, 3.86472
2.12795, 3.86443
2.1298, 3.86406
2.13172, 3.86374
2.1337, 3.86338
2.13568, 3.863
2.13753, 3.86264
2.13952, 3.86217
2.14137, 3.86184
2.14329, 3.86126
2.14507, 3.860947
2.14699, 3.86063
2.14884, 3.86034
2.15076, 3.85978
2.15267, 3.8592
2.15459, 3.85881
2.15644, 3.85836
2.15829, 3.85803
2.16021, 3.85757
2.16206, 3.85685
2.16398, 3.85643
2.16583, 3.85594
2.16775, 3.85533
2.1696, 3.85471
2.17099, 3.85408
2.17284, 3.85357
2.17469, 3.85296
2.17654, 3.85235
2.17839, 3.85173
2.18018, 3.85074
2.18203, 3.8501
2.18374, 3.84951
2.18553, 3.84844
2.18745, 3.8477
2.18923, 3.84651
2.19108, 3.8456
2.19293, 3.84468
2.19472, 3.84374
2.1965, 3.84228
2.19829, 3.8411
2.20014, 3.84009
2.20199, 3.83858
2.20397, 3.83748
2.20583, 3.83582
2.20768, 3.8345
2.20953, 3.83298
2.21131, 3.83132
2.21316, 3.82922
2.21501, 3.82768
2.21687, 3.82563
2.21885, 3.82322
2.2207, 3.82114
2.22248, 3.81901
2.22434, 3.81637
2.22612, 3.81357
2.22804, 3.80995
2.22989, 3.80686
2.23174, 3.8037
2.23372, 3.80011
2.23551, 3.79632
2.23749, 3.79225
2.23908, 3.78902
2.24093, 3.78506
2.24278, 3.78152
2.24463, 3.77751
2.24655, 3.77333
2.24853, 3.76929
2.25038, 3.76542
2.25223, 3.76202
2.25408, 3.75882
2.25594, 3.75493
2.257787, 3.75148
2.25924, 3.7487
2.26122, 3.74546
2.26308, 3.74235
2.26493, 3.73903
2.26678, 3.73572
2.26856, 3.73157
2.27041, 3.72738
2.27207, 3.72258
2.27365, 3.71745
2.27531, 3.71166
2.27689, 3.70591
2.27841, 3.69926
2.28026, 3.6916
2.28178, 3.68311
2.2833, 3.67598
2.28476, 3.66869
2.28661, 3.65928
2.28859, 3.65047
2.29051, 3.64295
2.29236, 3.6362
2.29428, 3.62938
2.29626, 3.6239
2.29818, 3.61569
2.30003, 3.60836
2.30195, 3.60158
2.30386, 3.59185
2.30572, 3.58305
2.30763, 3.57316
2.30962, 3.55892
2.3116, 3.54367
2.31338, 3.52832
2.3153, 3.50664
2.31715, 3.48361
2.31907, 3.45326
2.32092, 3.42553