File: smoothing_ref/dvdqraw/S25_291_anode_dchg_02C - 복사본.txt
Capacity (mAh), Voltage (V)
0, 0.0984173
0.0573111, 0.101098
0.0588064, 0.101682
0.06030171, 0.101859
0.061797, 0.10185
0.0632924, 0.102074
0.0647877, 0.101941
0.066283, 0.102077
0.0677783, 0.101959
0.0692736, 0.101628
0.070769, 0.101904
0.0722643, 0.102183
0.0737596, 0.101942
0.0752549, 0.102263
0.0767503, 0.102238
0.0782456, 0.102249
0.0797409, 0.102339
0.0812362, 0.102558
0.0827315, 0.102531
0.0842269, 0.102731
0.0857222, 0.102659
0.0872175, 0.102317
0.0887128, 0.102837
0.0902082, 0.102712
0.0917035, 0.102929
0.0931988, 0.102574
0.0946941, 0.102841
0.0961894, 0.102837
0.0976848, 0.102957
0.0991801, 0.102902
0.100675, 0.103105
0.102171, 0.103078
0.103666, 0.103263
0.105161, 0.103214
0.106657, 0.103151
0.108152, 0.103311
0.109647, 0.103019
0.111143, 0.103449
0.112638, 0.103323
0.114133, 0.103357
0.115629, 0.103358
0.117124, 0.103643
0.118619, 0.103528
0.120115, 0.103829
0.12161, 0.103424
0.123105, 0.103858
0.124601, 0.103564
0.126096, 0.103981
0.127591, 0.103702
0.129087, 0.103888
0.130582, 0.103842
0.132077, 0.104211
0.133573, 0.103967
0.135068, 0.103948
0.136563, 0.104259
0.138058, 0.104154
0.139554, 0.104413
0.141049, 0.104445
0.142544, 0.104285
0.14404, 0.104628
0.145535, 0.104399
0.14703, 0.104759
0.148526, 0.104325
0.150021, 0.104679
0.151516, 0.104498
0.153012, 0.104497
0.154507, 0.104764
0.156002, 0.104797
0.157498, 0.10502
0.158993, 0.105005
0.160488, 0.104654
0.161984, 0.105168
0.163479, 0.104784
0.164974, 0.105344
0.16647, 0.104976
0.167965, 0.104726
0.16946, 0.105236
0.170956, 0.105259
0.172451, 0.105392
0.173946, 0.105121
0.175442, 0.105158
0.176937, 0.105378
0.178432, 0.105171
0.179927, 0.105045
0.181423, 0.105462
0.182918, 0.105398
0.184413, 0.10575
0.185909, 0.105503
0.187404, 0.105401
0.188899, 0.105682
0.190395, 0.105392
0.19189, 0.105931
0.193385, 0.105623
0.194881, 0.106247
0.196376, 0.105833
0.197871, 0.10558
0.199367, 0.106036
0.200862, 0.105753
0.202357, 0.105554
0.203853, 0.106025
0.205348, 0.105834
0.206843, 0.10617
0.208339, 0.106096
0.209834, 0.105912
0.211329, 0.106139
0.212825, 0.106073
0.21432, 0.105982
0.215815, 0.106407
0.217311, 0.106189
0.218806, 0.106044
0.220301, 0.106579
0.221797, 0.106377
0.223292, 0.106944
0.224787, 0.106708
0.226282, 0.106375
0.227778, 0.106981
0.229273, 0.106677
0.230768, 0.10635
0.232264, 0.106973
0.233759, 0.106673
0.235254, 0.106966
0.23675, 0.106818
0.238245, 0.106601
0.23974, 0.106718
0.241236, 0.106892
0.242731, 0.106784
0.244226, 0.10647
0.245722, 0.106965
0.247217, 0.106841
0.248712, 0.106526
0.250208, 0.107076
0.251703, 0.106901
0.253198, 0.106818
0.254694, 0.106851
0.256189, 0.106692
0.257684, 0.106995
0.25918, 0.106922
0.260675, 0.106747
0.26217, 0.107056
0.263666, 0.107137
0.265161, 0.107015
0.266656, 0.106985
0.268152, 0.10725
0.269647, 0.107077
0.271142, 0.107181
0.272637, 0.107349
0.274133, 0.10715
0.275628, 0.10751
0.277123, 0.107337
0.278619, 0.107268
0.280114, 0.107343
0.281609, 0.107282
0.283105, 0.107351
0.2846, 0.107371
0.286095, 0.10733
0.287591, 0.10723
0.289086, 0.107239
0.290581, 0.107271
0.292077, 0.107244
0.293572, 0.107427
0.295067, 0.107261
0.296563, 0.107353
0.298058, 0.107364
0.299553, 0.107372
0.301049, 0.1071396
0.302544, 0.107207
0.304039, 0.107174
0.305535, 0.107307
0.30703, 0.107428
0.308525, 0.107317
0.310021, 0.10757
0.311516, 0.107769
0.313011, 0.107495
0.314507, 0.107674
0.316002, 0.107891
0.317497, 0.107641
0.318992, 0.107656
0.320488, 0.107653
0.321983, 0.107681
0.323478, 0.10753
0.324974, 0.107841
0.326469, 0.107652
0.327964, 0.1080028
0.32946, 0.107841
0.330955, 0.107776
0.33245, 0.108078
0.333946, 0.107739
0.335441, 0.107832
0.336936, 0.107852
0.338432, 0.107879
0.339927, 0.108077
0.341422, 0.107973
0.342918, 0.108153
0.344413, 0.108225
0.345908, 0.108139
0.3474036, 0.108016
0.348899, 0.108137
0.350394, 0.107984
0.35189, 0.108255
0.353385, 0.108277
0.35488, 0.108135
0.356376, 0.10821
0.357871, 0.108423
0.359366, 0.108571
0.360862, 0.108227
0.362357, 0.108419
0.363852, 0.108166
0.365347, 0.108603
0.366843, 0.108499
0.368338, 0.108467
0.369833, 0.108606
0.371329, 0.108165
0.372824, 0.108449
0.374319, 0.108472
0.375815, 0.108887
0.37731, 0.108852
0.378805, 0.108775
0.380301, 0.108355
0.381796, 0.108787
0.383291, 0.108849
0.384787, 0.108918
0.386282, 0.108837
0.387777, 0.108971
0.389273, 0.108949
0.390768, 0.109114
0.392263, 0.1094
0.393759, 0.109387
0.395254, 0.109193
0.396749, 0.109619
0.398245, 0.109587
0.39974, 0.10937
0.401235, 0.109474
0.402731, 0.109624
0.404226, 0.109438
0.405721, 0.109602
0.407216, 0.109731
0.408712, 0.109849
0.410207, 0.109857
0.411702, 0.10967
0.413198, 0.109908
0.414693, 0.109746
0.416188, 0.109777
0.417684, 0.10994
0.419179, 0.109949
0.420674, 0.109979
0.42217, 0.110168
0.423665, 0.109984
0.42516, 0.110416
0.426656, 0.110243
0.428151, 0.110369
0.429646, 0.110476
0.431142, 0.110467
0.432637, 0.110408
0.434132, 0.110408
0.435628, 0.110465
0.437123, 0.11058
0.438618, 0.110692
0.440114, 0.110551
0.441609, 0.110597
0.443104, 0.110805
0.4446, 0.11082
0.446095, 0.110647
0.44759, 0.110689
0.449086, 0.11104
0.450581, 0.111044
0.452076, 0.110969
0.453571, 0.111286
0.455067, 0.111298
0.456562, 0.111138
0.458057, 0.111414
0.459553, 0.111207
0.461048, 0.111321
0.462543, 0.111419
0.464039, 0.111139
0.465534, 0.111199
0.467029, 0.11151
0.468525, 0.111396
0.47002, 0.111339
0.471515, 0.111749
0.473011, 0.111587
0.474506, 0.11176
0.476001, 0.111795
0.477497, 0.111536
0.478992, 0.111891
0.480487, 0.111962
0.481983, 0.112049
0.483478, 0.111855
0.484973, 0.111802
0.486469, 0.112107
0.487964, 0.112019
0.489459, 0.112421
0.490955, 0.112212
0.49245, 0.112363
0.493945, 0.112553
0.495441, 0.112391
0.496936, 0.112438
0.498431, 0.112386
0.499926, 0.112378
0.501422, 0.112326
0.502917, 0.112306
0.504412, 0.112566
0.505908, 0.112558
0.507403, 0.112669
0.508898, 0.112739
0.510394, 0.112685
0.511889, 0.11268
0.513384, 0.112922
0.51488, 0.112877
0.516375, 0.11294
0.51787, 0.113135
0.519366, 0.113085
0.520861, 0.113154
0.522356, 0.113097
0.523852, 0.113046
0.525347, 0.113299
0.526842, 0.113359
0.528338, 0.113378
0.529833, 0.113364
0.531328, 0.113323
0.532824, 0.113669
0.534319, 0.113679
0.535814, 0.11376
0.53731, 0.113704
0.538805, 0.113782
0.5403, 0.114015
0.541796, 0.113973
0.543291, 0.11372
0.544786, 0.113858
0.546281, 0.114021
0.547777, 0.113973
0.549272, 0.114187
0.550767, 0.114151
0.552263, 0.114224
0.553758, 0.114119
0.555253, 0.114388
0.556749, 0.114233
0.558244, 0.114478
0.559739, 0.114546
0.561235, 0.114395
0.56273, 0.114496
0.564225, 0.114724
0.565721, 0.11469
0.567216, 0.114787
0.568711, 0.114631
0.570207, 0.114871
0.571702, 0.11482
0.573197, 0.114849
0.574693, 0.114759
0.576188, 0.114971
0.577683, 0.114848
0.579179, 0.114854
0.580674, 0.115127
0.582169, 0.115202
0.583665, 0.11518
0.58516, 0.115127
0.586655, 0.11539
0.58815, 0.115578
0.589646, 0.115548
0.591141, 0.115824
0.592636, 0.115718
0.594132, 0.115613
0.595627, 0.115742
0.597122, 0.115723
0.598618, 0.11577
0.600113, 0.115633
0.601608, 0.11586
0.603104, 0.115784
0.604599, 0.116029
0.606094, 0.116041
0.60759, 0.11601
0.609085, 0.116285
0.61058, 0.116287
0.612076, 0.116573
0.613571, 0.116386
0.6150663, 0.116612
0.616562, 0.116556
0.618057, 0.116625
0.619552, 0.116847
0.621048, 0.116689
0.622543, 0.116742
0.624038, 0.116781
0.625534, 0.116708
0.627029, 0.116716
0.628524, 0.11687
0.63002, 0.116835
0.631515, 0.116772
0.63301, 0.11696
0.634505, 0.116893
0.636001, 0.116921
0.637496, 0.117108
0.638991, 0.117173
0.640487, 0.117172
0.641982, 0.117404
0.643477, 0.117329
0.644973, 0.117481
0.646468, 0.117403
0.647963, 0.117444
0.649459, 0.117669
0.650954, 0.117654
0.652449, 0.117435
0.653945, 0.117735
0.65544, 0.11795
0.656935, 0.117922
0.658431, 0.117873
0.659926, 0.118098
0.661421, 0.117962
0.662917, 0.118058
0.664412, 0.118031
0.665907, 0.118458
0.667403, 0.118293
0.668898, 0.118224
0.670393, 0.118245
0.671889, 0.118412
0.673384, 0.118344
0.674879, 0.118327
0.676375, 0.118495
0.67787, 0.118289
0.679365, 0.118193
0.68086, 0.11837
0.682356, 0.118359
0.683851, 0.118522
0.685346, 0.118594
0.686842, 0.118538
0.688337, 0.118838
0.689832, 0.118721
0.691328, 0.118732
0.692823, 0.11914
0.694318, 0.119196
0.695814, 0.118998
0.697309, 0.119358
0.698804, 0.119283
0.7003, 0.119284
0.701795, 0.119426
0.70329, 0.119366
0.704786, 0.119504
0.706281, 0.119642
0.707776, 0.1194343
0.709272, 0.119589
0.710767, 0.119587
0.712262, 0.119605
0.713758, 0.119468
0.715253, 0.119403
0.716748, 0.119625
0.718244, 0.119835
0.719739, 0.119993
0.721234, 0.120099
0.72273, 0.120201
0.724225, 0.120141
0.72572, 0.120385
0.727215, 0.120144
0.728711, 0.120239
0.730206, 0.120183
0.731701, 0.120429
0.733197, 0.120692
0.734692, 0.120619
0.736187, 0.120395
0.737683, 0.12069
0.739178, 0.121017
0.740673, 0.12087
0.742169, 0.120864
0.743664, 0.120862
0.745159, 0.120888
0.746655, 0.120804
0.74815, 0.120873
0.749645, 0.121128
0.751141, 0.121254
0.752636, 0.121102
0.754131, 0.121332
0.7556266, 0.121472
0.757122, 0.121268
0.758617, 0.121581
0.760113, 0.121476
0.761608, 0.121741
0.763103, 0.121693
0.764599, 0.121841
0.766094, 0.121938
0.767589, 0.122065
0.769085, 0.122041
0.77058, 0.122098
0.772075, 0.122224
0.77357, 0.122422
0.775066, 0.122332
0.776561, 0.122425
0.778056, 0.122463
0.779552, 0.122611
0.781047, 0.122745
0.782542, 0.122753
0.784038, 0.122672
0.785533, 0.122765
0.787028, 0.122769
0.788524, 0.12291
0.790019, 0.123114
0.791514, 0.122911
0.79301, 0.12296
0.794505, 0.123116
0.796, 0.123102
0.797496, 0.123285
0.798991, 0.123481
0.800486, 0.123437
0.801982, 0.123477
0.803477, 0.123431
0.804972, 0.123283
0.806468, 0.123412
0.807963, 0.123503
0.809458, 0.123473
0.810954, 0.123286
0.812449, 0.123542
0.813944, 0.12379
0.815439, 0.123634
0.816935, 0.123828
0.81843, 0.12389
0.819925, 0.124194
0.821421, 0.124185
0.822916, 0.124334
0.824411, 0.124481
0.825907, 0.12431
0.827402, 0.124461
0.828897, 0.124598
0.830393, 0.124505
0.831888, 0.124794
0.833383, 0.124757
0.834879, 0.124792
0.836374, 0.124568
0.837869, 0.124898
0.839365, 0.124757
0.84086, 0.124927
0.842355, 0.125026
0.843851, 0.125125
0.845346, 0.125055
0.846841, 0.125172
0.848337, 0.125367
0.849832, 0.125563
0.851327, 0.125618
0.852823, 0.125471
0.854318, 0.12565
0.855813, 0.125822
0.857309, 0.125843
0.858804, 0.125808
0.860299, 0.125942
0.861794, 0.126036
0.86329, 0.125906
0.864785, 0.125972
0.86628, 0.126159
0.867776, 0.126342
0.869271, 0.126221
0.870766, 0.126208
0.872262, 0.126409
0.873757, 0.126611
0.875252, 0.126716
0.876748, 0.126692
0.878243, 0.126715
0.879738, 0.126872
0.881234, 0.126987
0.882729, 0.127168
0.884224, 0.126995
0.88572, 0.127075
0.887215, 0.127202
0.88871, 0.127241
0.890206, 0.12735
0.891701, 0.127255
0.893196, 0.127453
0.894692, 0.12746
0.896187, 0.127657
0.897682, 0.127854
0.899178, 0.128051
0.900673, 0.128058
0.902168, 0.127944
0.903664, 0.128139
0.905159, 0.128333
0.906654, 0.128528
0.908149, 0.128737
0.909645, 0.128874
0.91114, 0.128895
0.912635, 0.129054
0.914131, 0.129087
0.915626, 0.129236
0.917121, 0.129469
0.918617, 0.129719
0.920112, 0.129888
0.921607, 0.1298
0.923103, 0.13002
0.924598, 0.130296
0.926093, 0.130273
0.927589, 0.130403
0.929084, 0.130579
0.930579, 0.130752
0.932075, 0.1309444
0.93357, 0.130961
0.935065, 0.131387
0.936561, 0.131174
0.938056, 0.131349
0.939551, 0.13164
0.941047, 0.131996
0.942542, 0.131947
0.944037, 0.132282
0.945533, 0.132457
0.947028, 0.132471
0.948523, 0.132618
0.950019, 0.133049
0.951514, 0.133298
0.953009, 0.133237
0.954504, 0.13335
0.956, 0.133423
0.957495, 0.133827
0.95899, 0.134059
0.960486, 0.134303
0.961981, 0.134559
0.963476, 0.13469
0.964972, 0.134806
0.966467, 0.135038
0.967962, 0.135084
0.969458, 0.135444
0.970953, 0.135567
0.972448, 0.135997
0.973944, 0.136076
0.975439, 0.136131
0.976934, 0.136557
0.97843, 0.136783
0.979925, 0.137032
0.98142, 0.137273
0.982916, 0.137505
0.984411, 0.137564
0.985906, 0.137915
0.987402, 0.138231
0.988897, 0.138418
0.990392, 0.138612
0.991888, 0.138807
0.993383, 0.139002
0.994878, 0.139099
0.996373, 0.139426
0.997869, 0.139505
0.999364, 0.139644
1.00086, 0.139922
1.00235, 0.140264
1.00385, 0.140362
1.00535, 0.140554
1.00684, 0.140828
1.00834, 0.141145
1.00983, 0.141402
1.01133, 0.141609
1.01282, 0.141522
1.01432, 0.141718
1.01581, 0.141913
1.01731, 0.142109
1.0188, 0.142108
1.0203, 0.142411
1.02179, 0.142633
1.02329, 0.142807
1.02478, 0.143027
1.02628, 0.1433018
1.02778, 0.143335
1.02927, 0.143602
1.03077, 0.1437844
1.03226, 0.14402
1.03376, 0.144182
1.03525, 0.144023
1.03675, 0.1443
1.03824, 0.144468
1.03974, 0.144554
1.04123, 0.144675
1.04273, 0.144941
1.04422, 0.144876
1.04572, 0.1449243
1.04721, 0.145006
1.04871, 0.145088
1.05021, 0.145192
1.0517, 0.145399
1.0532, 0.145624
1.05469, 0.145651
1.05619, 0.145841
1.05768, 0.145933
1.05918, 0.145997
1.06067, 0.146061
1.06217, 0.146279
1.06366, 0.146151
1.06516, 0.146213
1.06665, 0.146303
1.06815, 0.146498
1.06964, 0.146715
1.07114, 0.146899
1.07263, 0.146952
1.07413, 0.146895
1.07563, 0.146833
1.07712, 0.147229
1.07862, 0.147249
1.08011, 0.147269
1.08161, 0.147228
1.0831, 0.147211
1.0846, 0.147192
1.08609, 0.147184
1.08759, 0.147345
1.08908, 0.147418
1.09058, 0.147452
1.09207, 0.147405
1.09357, 0.147506
1.09506, 0.147548
1.09656, 0.147533
1.09806, 0.147642
1.09955, 0.147684
1.10105, 0.147941
1.10254, 0.147915
1.10404, 0.147889
1.10553, 0.147819
1.10703, 0.147815
1.10852, 0.147801
1.11002, 0.147958
1.11151, 0.14775
1.11301, 0.147782
1.1145, 0.147978
1.116, 0.148072
1.11749, 0.148272
1.11899, 0.148266
1.12049, 0.148333
1.12198, 0.148436
1.12348, 0.148424
1.12497, 0.148386
1.12647, 0.148364
1.12796, 0.148566
1.12946, 0.148296
1.13095, 0.148512
1.13245, 0.148394
1.13394, 0.148589
1.13544, 0.148538
1.13693, 0.148499
1.13843, 0.148656
1.13992, 0.148631
1.14142, 0.148588
1.14292, 0.148852
1.14441, 0.148974
1.14591, 0.148935
1.1474, 0.148895
1.1489, 0.148948
1.15039, 0.148894
1.15189, 0.14893
1.15338, 0.149161
1.15488, 0.149171
1.15637, 0.149151
1.15787, 0.149278
1.15936, 0.149224
1.16086, 0.149416
1.16235, 0.149379
1.16385, 0.149318
1.16534, 0.149302
1.16684, 0.149389
1.16834, 0.149669
1.16983, 0.14953
1.17133, 0.149534
1.17282, 0.149449
1.17432, 0.149387
1.17581, 0.149488
1.17731, 0.149528
1.1788, 0.149574
1.1803, 0.149478
1.18179, 0.149493
1.18329, 0.149598
1.18478, 0.149875
1.18628, 0.149869
1.18777, 0.150007
1.18927, 0.150107
1.19077, 0.149947
1.19226, 0.150155
1.19376, 0.150275
1.19525, 0.150184
1.19675, 0.150158
1.19824, 0.150167
1.19974, 0.150267
1.20123, 0.150224
1.20273, 0.150206
1.20422, 0.150091
1.20572, 0.150132
1.20721, 0.150388
1.20871, 0.150286
1.2102, 0.150183
1.2117, 0.150081
1.2132, 0.150187
1.21469, 0.15024
1.21619, 0.150378
1.21768, 0.150503
1.21918, 0.150442
1.22067, 0.150612
1.22217, 0.150749
1.22366, 0.150641
1.22516, 0.150533
1.22665, 0.150636
1.22815, 0.150706
1.22964, 0.150866
1.23114, 0.150877
1.23263, 0.150997
1.23413, 0.151026
1.23563, 0.15095
1.23712, 0.1508
1.23862, 0.151119
1.24011, 0.151018
1.24161, 0.1508731
1.2431, 0.150887
1.2446, 0.151077
1.24609, 0.150977
1.24759, 0.151001
1.24908, 0.151183
1.25058, 0.151179
1.25207, 0.151178
1.25357, 0.151296
1.25506, 0.151254
1.25656, 0.151494
1.25805, 0.151452
1.25955, 0.15145
1.26105, 0.151693
1.26254, 0.151537
1.26404, 0.151413
1.26553, 0.151644
1.26703, 0.151626
1.26852, 0.151529
1.27002, 0.151559
1.27151, 0.151807
1.27301, 0.151536
1.2745, 0.151688
1.276, 0.151525
1.27749, 0.151518
1.27899, 0.15171
1.28048, 0.151745
1.28198, 0.151917
1.28348, 0.151862
1.28497, 0.151822
1.28647, 0.15202
1.28796, 0.152234
1.28946, 0.152374
1.290952, 0.152244
1.29245, 0.152374
1.29394, 0.152082
1.29544, 0.152095
1.29693, 0.151987
1.29843, 0.152025
1.29992, 0.152104
1.30142, 0.152046
1.30291, 0.152291
1.30441, 0.152135
1.30591, 0.152127
1.3074, 0.15213
1.3089, 0.15245
1.31039, 0.152418
1.31189, 0.152578
1.31338, 0.152502
1.31488, 0.152523
1.31637, 0.152686
1.31787, 0.152528
1.31936, 0.152565
1.32086, 0.152713
1.32235, 0.152622
1.32385, 0.15283
1.32534, 0.15284
1.32684, 0.152858
1.32834, 0.152968
1.32983, 0.15314
1.33133, 0.15318
1.33282, 0.153102
1.33432, 0.153157
1.33581, 0.15305
1.33731, 0.15335
1.3388, 0.15298
1.3403, 0.153057
1.34179, 0.152949
1.34329, 0.15324
1.34478, 0.153152
1.34628, 0.153396
1.34777, 0.153244
1.34927, 0.153222
1.35076, 0.153427
1.35226, 0.153434
1.35376, 0.153345
1.35525, 0.15347
1.35675, 0.153487
1.35824, 0.15346
1.35974, 0.153683
1.36123, 0.15336
1.36273, 0.153387
1.36422, 0.153364
1.36572, 0.153538
1.36721, 0.153435
1.36871, 0.153722
1.3702, 0.153782
1.3717, 0.153789
1.37319, 0.153755
1.37469, 0.153702
1.37619, 0.153698
1.37768, 0.153905
1.37918, 0.153996
1.38067, 0.153943
1.38217, 0.153957
1.38366, 0.154118
1.38516, 0.154156
1.38665, 0.154182
1.38815, 0.154097
1.38964, 0.154208
1.39114, 0.154504
1.39263, 0.154351
1.39413, 0.15427
1.39562, 0.154543
1.39712, 0.154372
1.39862, 0.154615
1.40011, 0.154551
1.40161, 0.154664
1.4031, 0.154813
1.4046, 0.154685
1.40609, 0.154786
1.40759, 0.154842
1.40908, 0.154986
1.41058, 0.154731
1.41207, 0.154977
1.41357, 0.154991
1.41506, 0.155089
1.41656, 0.155022
1.41805, 0.155199
1.41955, 0.155097
1.42105, 0.155031
1.42254, 0.15513
1.42404, 0.155069
1.42553, 0.155293
1.42703, 0.15525
1.42852, 0.15542
1.43002, 0.155421
1.43151, 0.155554
1.43301, 0.155562
1.4345, 0.155258
1.436, 0.1552
1.43749, 0.155188
1.43899, 0.155352
1.44048, 0.155512
1.44198, 0.155652
1.44347, 0.155839
1.44497, 0.155693
1.44647, 0.155922
1.44796, 0.155727
1.44946, 0.155836
1.45095, 0.155803
1.45245, 0.15584
1.45394, 0.155943
1.45544, 0.155883
1.45693, 0.155977
1.45843, 0.156323
1.45992, 0.156327
1.46142, 0.156168
1.46291, 0.156197
1.46441, 0.156169
1.4659, 0.156289
1.4674, 0.156155
1.4689, 0.156164
1.47039, 0.15629
1.47189, 0.156533
1.47338, 0.156362
1.47488, 0.156613
1.47637, 0.156426
1.47787, 0.156735
1.47936, 0.156614
1.48086, 0.156651
1.48235, 0.156798
1.48385, 0.15683
1.48534, 0.156939
1.48684, 0.157218
1.48833, 0.15702
1.48983, 0.15694
1.49133, 0.156935
1.49282, 0.156916
1.49432, 0.15708
1.49581, 0.156929
1.49731, 0.157186
1.4988, 0.157016
1.5003, 0.157249
1.50179, 0.15708
1.50329, 0.157412
1.50478, 0.157305
1.50628, 0.157575
1.50777, 0.157444
1.50927, 0.157717
1.51076, 0.157563
1.51226, 0.157846
1.51376, 0.157765
1.51525, 0.157963
1.51675, 0.157787
1.51824, 0.157799
1.51974, 0.15807
1.52123, 0.157949
1.52273, 0.15805
1.52422, 0.158126
1.52572, 0.158249
1.52721, 0.158215
1.52871, 0.15832
1.5302, 0.158458
1.5317, 0.158383
1.53319, 0.158462
1.53469, 0.158475
1.53618, 0.158434
1.53768, 0.158566
1.53918, 0.158449
1.54067, 0.158656
1.54217, 0.158779
1.54366, 0.158827
1.54516, 0.158997
1.54665, 0.158898
1.54815, 0.159126
1.54964, 0.158967
1.55114, 0.159213
1.55263, 0.159072
1.55413, 0.159012
1.55562, 0.159093
1.55712, 0.159387
1.55861, 0.159246
1.56011, 0.159473
1.56161, 0.159361
1.5631, 0.159638
1.5646, 0.159589
1.56609, 0.159546
1.56759, 0.159782
1.56908, 0.159793
1.57058, 0.159821
1.57207, 0.159779
1.57357, 0.159895
1.57506, 0.160143
1.57656, 0.15996
1.57805, 0.160191
1.57955, 0.160245
1.58104, 0.160086
1.58254, 0.160367
1.58404, 0.160243
1.58553, 0.160297
1.58703, 0.160208
1.58852, 0.160236
1.59002, 0.160484
1.59151, 0.160596
1.59301, 0.160533
1.5945, 0.160609
1.596, 0.160835
1.59749, 0.160805
1.59899, 0.160858
1.60048, 0.160921
1.60198, 0.16098
1.60347, 0.161316
1.60497, 0.161346
1.60647, 0.161266
1.60796, 0.161564
1.60946, 0.161707
1.61095, 0.16182
1.61245, 0.161663
1.61394, 0.161794
1.61544, 0.162031
1.61693, 0.161964
1.61843, 0.162013
1.61992, 0.162032
1.62142, 0.16219
1.62291, 0.16225
1.62441, 0.162419
1.6259, 0.162386
1.6274, 0.162486
1.62889, 0.162653
1.63039, 0.162896
1.63189, 0.162738
1.63338, 0.163032
1.63488, 0.163097
1.63637, 0.16319
1.63787, 0.163412
1.63936, 0.163417
1.64086, 0.163518
1.64235, 0.163794
1.64385, 0.163795
1.64534, 0.163887
1.64684, 0.164125
1.64833, 0.164164
1.64983, 0.16431
1.65132, 0.164253
1.65282, 0.164442
1.65432, 0.164697
1.65581, 0.164588
1.65731, 0.164861
1.6588, 0.164921
1.6603, 0.165072
1.66179, 0.1654005
1.66329, 0.165623
1.66478, 0.1655
1.66628, 0.165776
1.66777, 0.16571
1.66927, 0.165884
1.67076, 0.166003
1.67226, 0.16613
1.67375, 0.166407
1.67525, 0.166757
1.67675, 0.166655
1.67824, 0.166938
1.67974, 0.167044
1.68123, 0.167022
1.68273, 0.167313
1.68422, 0.16737
1.68572, 0.167404
1.68721, 0.167756
1.68871, 0.167807
1.6902, 0.167969
1.6917, 0.16832
1.69319, 0.168675
1.69469, 0.168717
1.69618, 0.168842
1.69768, 0.169111
1.69918, 0.16944
1.70067, 0.169441
1.70217, 0.169779
1.70366, 0.169867
1.70516, 0.169997
1.70665, 0.17035
1.70815, 0.170633
1.70964, 0.170554
1.71114, 0.170839
1.71263, 0.170884
1.71413, 0.171115
1.71562, 0.171469
1.71712, 0.171693
1.71861, 0.171812
1.72011, 0.17203
1.7216, 0.172142
1.7231, 0.172237
1.7246, 0.172582
1.72609, 0.172888
1.72759, 0.173117
1.72908, 0.172998
1.73058, 0.173303
1.73207, 0.173608
1.73357, 0.173555
1.73506, 0.173811
1.73656, 0.174163
1.73805, 0.174227
1.73955, 0.174367
1.74104, 0.17471
1.74254, 0.175052
1.74403, 0.175045
1.74553, 0.175234
1.74703, 0.175575
1.74852, 0.175795
1.75002, 0.175776
1.75151, 0.176129
1.75301, 0.176295
1.7545, 0.176539
1.756, 0.176696
1.75749, 0.177024
1.75899, 0.177343
1.76048, 0.177205
1.76198, 0.177546
1.76347, 0.177704
1.76497, 0.177902
1.76646, 0.178188
1.76796, 0.178296
1.76946, 0.178599
1.77095, 0.178759
1.77245, 0.178973
1.77394, 0.179045
1.77544, 0.179326
1.77693, 0.179553
1.77843, 0.179876
1.77992, 0.180036
1.78142, 0.180368
1.78291, 0.180722
1.78441, 0.180985
1.7859, 0.181148
1.7874, 0.181406
1.78889, 0.18163
1.79039, 0.181696
1.79188, 0.182045
1.79338, 0.182323
1.79488, 0.182261
1.79637, 0.182618
1.79787, 0.182889
1.79936, 0.1831
1.80086, 0.183394
1.80235, 0.183401
1.80385, 0.183506
1.80534, 0.183797
1.80684, 0.1841
1.80833, 0.18439
1.80983, 0.184215
1.81132, 0.184474
1.81282, 0.184564
1.81431, 0.184838
1.81581, 0.185121
1.81731, 0.185116
1.8188, 0.185249
1.8203, 0.185723
1.82179, 0.185885
1.82329, 0.186053
1.82478, 0.186223
1.82628, 0.186524
1.82777, 0.186665
1.82927, 0.186723
1.83076, 0.186997
1.83226, 0.187305
1.83375, 0.187605
1.83525, 0.187546
1.83674, 0.18769
1.83824, 0.187983
1.83974, 0.188275
1.84123, 0.188106
1.84273, 0.188423
1.84422, 0.188833
1.84572, 0.188813
1.84721, 0.189038
1.84871, 0.189111
1.8502, 0.189598
1.8517, 0.189705
1.85319, 0.190008
1.85469, 0.190033
1.85618, 0.19034
1.85768, 0.190623
1.85917, 0.190766
1.86067, 0.190968
1.86217, 0.191249
1.86366, 0.191531
1.86516, 0.191539
1.86665, 0.191833
1.86815, 0.192008
1.86964, 0.192204
1.87114, 0.192499
1.87263, 0.192582
1.87413, 0.192892
1.87562, 0.193062
1.87712, 0.193565
1.87861, 0.193726
1.88011, 0.194061
1.8816, 0.194367
1.8831, 0.194291
1.88459, 0.194607
1.88609, 0.194787
1.88759, 0.195097
1.88908, 0.195253
1.89058, 0.195718
1.89207, 0.195869
1.89357, 0.196193
1.89506, 0.196347
1.89656, 0.1966018
1.89805, 0.196885
1.89955, 0.19722
1.90104, 0.197558
1.90254, 0.19784
1.90403, 0.198062
1.90553, 0.198453
1.90702, 0.198761
1.90852, 0.199174
1.91002, 0.199187
1.91151, 0.199457
1.91301, 0.19982
1.9145, 0.200183
1.916, 0.200546
1.91749, 0.200909
1.91899, 0.201308
1.92048, 0.201612
1.92198, 0.201984
1.92347, 0.202431
1.92497, 0.202718
1.92646, 0.203181
1.92796, 0.203508
1.92945, 0.203761
1.93095, 0.203984
1.93245, 0.204318
1.93394, 0.204524
1.93544, 0.204969
1.93693, 0.205391
1.93843, 0.20577
1.93992, 0.206303
1.94142, 0.206672
1.94291, 0.206882
1.94441, 0.207294
1.9459, 0.207628
1.9474, 0.2079
1.94889, 0.208312
1.95039, 0.208762
1.95188, 0.209231
1.95338, 0.2097
1.95488, 0.209984
1.95637, 0.210633
1.95787, 0.210702
1.95936, 0.211157
1.96086, 0.211399
1.96235, 0.212019
1.96385, 0.212002
1.96534, 0.212429
1.96684, 0.212898
1.96833, 0.213367
1.96983, 0.213836
1.97132, 0.214256
1.97282, 0.21455
1.97431, 0.214962
1.97581, 0.215373
1.9773, 0.215664
1.9788, 0.215979
1.9803, 0.216338
1.98179, 0.216593
1.98329, 0.217043
1.98478, 0.217796
1.98628, 0.217983
1.98777, 0.218274
1.98927, 0.218706
1.99076, 0.219175
1.99226, 0.219629
1.99375, 0.219895
1.99525, 0.220364
1.99674, 0.220855
1.99824, 0.221365
1.99973, 0.221875
2.00123, 0.222385
2.00273, 0.222894
2.00422, 0.223067
2.00572, 0.223392
2.00721, 0.224033
2.00871, 0.224435
2.0102, 0.224871
2.0117, 0.225375
2.01319, 0.225761
2.01469, 0.2263096
2.01618, 0.226885
2.01768, 0.22746
2.01917, 0.228036
2.02067, 0.22851
2.02216, 0.228681
2.02366, 0.229235
2.02516, 0.22956
2.02665, 0.230171
2.02815, 0.230403
2.02964, 0.230673
2.03114, 0.231018
2.03263, 0.231373
2.03413, 0.231796
2.03562, 0.232141
2.03712, 0.23243
2.03861, 0.232719
2.04011, 0.232847
2.0416, 0.233256
2.0431, 0.233354
2.04459, 0.233503
2.04609, 0.233682
2.04759, 0.233636
2.04908, 0.233729
2.05058, 0.234011
2.05207, 0.233961
2.05357, 0.234194
2.05506, 0.234427
2.05656, 0.234599
2.05805, 0.234676
2.05955, 0.234851
2.06104, 0.234912
2.06254, 0.234984
2.06403, 0.23516
2.06553, 0.235335
2.06702, 0.235359
2.06852, 0.235465
2.07001, 0.235638
2.07151, 0.235812
2.07301, 0.235985
2.0745, 0.23603
2.076, 0.236093
2.07749, 0.236271
2.07899, 0.236348
2.08048, 0.236393
2.08198, 0.236573
2.08347, 0.236751
2.08497, 0.236928
2.08646, 0.236984
2.08796, 0.237065
2.08945, 0.237242
2.09095, 0.237408
2.09244, 0.237389
2.09394, 0.237556
2.09544, 0.237733
2.09693, 0.237912
2.09843, 0.238039
2.09992, 0.238094
2.10142, 0.238275
2.10291, 0.238493
2.10441, 0.238693
2.1059, 0.238446
2.1074, 0.238574
2.10889, 0.238763
2.11039, 0.238953
2.11188, 0.239118
2.11338, 0.239186
2.11487, 0.239472
2.11637, 0.239516
2.11787, 0.239714
2.11936, 0.239911
2.12086, 0.240061
2.12235, 0.240061
2.12385, 0.240239
2.12534, 0.240417
2.12684, 0.240451
2.12833, 0.24029
2.12983, 0.240554
2.13132, 0.240757
2.13282, 0.240977
2.13431, 0.241018
2.13581, 0.241248
2.1373, 0.241544
2.1388, 0.2418038
2.1403, 0.241918
2.14179, 0.242214
2.14329, 0.24251
2.14478, 0.242737
2.14628, 0.242763
2.14777, 0.242714
2.14927, 0.243229
2.15076, 0.24318
2.15226, 0.24335
2.15375, 0.24347
2.15525, 0.243727
2.15674, 0.243877
2.15824, 0.244023
2.15973, 0.244318
2.16123, 0.244475
2.16272, 0.244472
2.16422, 0.244959
2.16572, 0.245126
2.16721, 0.245483
2.16871, 0.245893
2.1702, 0.246089
2.1717, 0.2465
2.17319, 0.246851
2.17469, 0.247136
2.17618, 0.247735
2.17768, 0.248333
2.17917, 0.248799
2.18067, 0.249312
2.18216, 0.24991
2.18366, 0.250557
2.18515, 0.251308
2.18665, 0.252118
2.18815, 0.252462
2.18964, 0.253239
2.19114, 0.254367
2.19263, 0.255419
2.19413, 0.256659
2.19562, 0.257817
2.19712, 0.259024
2.19861, 0.260592
2.20011, 0.262232
2.2016, 0.263987
2.2031, 0.265575
2.20459, 0.267279
2.20609, 0.269071
2.20758, 0.271311
2.20908, 0.273122
2.21058, 0.275444
2.21207, 0.277699
2.21357, 0.280085
2.21506, 0.282717
2.21656, 0.285318
2.21805, 0.288042
2.22328, 0.293709
2.23293, 0.312068
2.24246, 0.333091
2.25181, 0.356544
2.26061, 0.381815
2.26995, 0.412948
2.27887, 0.447034
2.28773, 0.487824
2.29634, 0.536376
2.3044, 0.59437
2.31271, 0.676836
2.32083, 0.864683
2.32462, 1.14789
2.32652, 1.35645